Folder: DBL-Energy/battery 3

File: OGO2024_flow battery 4_battery_6 mM ethoxyAB + MEEPT + 200 mM TBAPF6 in MeCN_C05.txt
time/s;Ewe/V;Energy charge/W.h;Energy discharge/W.h;Q discharge/mA.h;Q charge/mA.h;cycle number;
0.000000000000000E+000;-0.0195046;0.000000000000000E+000;0.000000000000000E+000;0.000000000000000E+000;0.000000000000000E+000;0.000000000000000E+000
258.874;1.4781;0.00235193;-0.00112117;0.552586;0.000000000000000E+000;0.000000000000000E+000
513.533;2.15434;0.0018884;-0.000340675;0.155852;0.000000000000000E+000;1
779.7;2.59952;0.00176728;0.000000000000000E+000;0.000000000000000E+000;0.737678;2
1036.04;2.59934;0.00151518;0.000000000000000E+000;0.000000000000000E+000;0.639;3
1294.48;2.38012;0.000987578;0.000000000000000E+000;0.000000000000000E+000;0.424986;4
1548.72;2.27903;0.00016077;0.000000000000000E+000;0.000000000000000E+000;0.0708346;5
1814.57;0.999243;0.00169279;-0.00100825;0.649245;0.000000000000000E+000;5
2069.85;0.999338;0.00168174;-0.000932913;0.589125;0.000000000000000E+000;6
2330.26;1.4305;0.00167556;-0.000675071;0.368378;0.000000000000000E+000;7
2585.82;2.15713;0.00168251;-6.11183e-05;0.0283385;0.000000000000000E+000;8
2851.64;2.59938;0.00163881;0.000000000000000E+000;0.000000000000000E+000;0.685049;9
3111.67;2.46477;0.0012936;0.000000000000000E+000;0.000000000000000E+000;0.552478;10
3368.67;2.32731;0.000552489;0.000000000000000E+000;0.000000000000000E+000;0.240827;11
3632.39;0.999224;0.00169064;-0.000975818;0.663798;0.000000000000000E+000;11
3890.82;0.999338;0.00169794;-0.000943064;0.634214;0.000000000000000E+000;12
4145.23;0.999185;0.00171161;-0.000790328;0.482889;0.000000000000000E+000;13
4404.32;1.85701;0.00172875;-0.000287885;0.141683;0.000000000000000E+000;14
4668.14;2.59942;0.00168097;0.000000000000000E+000;0.000000000000000E+000;0.704339;15
4927.3;2.38119;0.00105246;0.000000000000000E+000;0.000000000000000E+000;0.453311;16
5182.69;2.27307;0.000160381;0.000000000000000E+000;0.000000000000000E+000;0.070835;17
5448.5;0.999262;0.00177038;-0.000981191;0.674542;0.000000000000000E+000;17
5703.46;0.999281;0.00178408;-0.000866555;0.559603;0.000000000000000E+000;18
5963.54;1.69293;0.00179793;-0.00040665;0.212525;0.000000000000000E+000;19
6227.76;2.59946;0.00176878;0.000000000000000E+000;0.000000000000000E+000;0.740701;20
6488.62;2.38729;0.0011194;0.000000000000000E+000;0.000000000000000E+000;0.481647;21
6742.98;2.25894;9.59199e-05;0.000000000000000E+000;0.000000000000000E+000;0.0425024;22
7007.76;0.999185;0.00183822;-0.000990937;0.688165;0.000000000000000E+000;22
7267.22;1.14065;0.00185846;-0.000783893;0.481715;0.000000000000000E+000;23
7523.26;2.02459;0.00187192;-5.74169e-05;0.0283382;0.000000000000000E+000;24
7790.58;2.5995;0.00160409;0.000000000000000E+000;0.000000000000000E+000;0.678637;25
8052.45;2.32593;0.000584768;0.000000000000000E+000;0.000000000000000E+000;0.254992;26
8316.75;0.999243;0.00190186;-0.00103593;0.73168;0.000000000000000E+000;26
8572.62;0.999376;0.00192255;-0.000897834;0.592605;0.000000000000000E+000;27
8831.93;1.84362;0.00193363;-0.00024709;0.127516;0.000000000000000E+000;28
9097.93;2.59946;0.00176078;0.000000000000000E+000;0.000000000000000E+000;0.739235;29
9358.65;2.33773;0.000651696;0.000000000000000E+000;0.000000000000000E+000;0.283322;30
9624.34;0.999243;0.00196372;-0.00105232;0.749294;0.000000000000000E+000;30
9878.47;0.999224;0.00198255;-0.000860729;0.557261;0.000000000000000E+000;31
10138.6;1.95995;0.00200121;-5.55589e-05;0.0283386;0.000000000000000E+000;32
10409.7;2.50076;0.00157118;0.000000000000000E+000;0.000000000000000E+000;0.6658;33
10667.1;1.19434;0.0020031;-0.00108277;0.782863;0.000000000000000E+000;33
10931.7;0.999262;0.00203827;-0.00099465;0.694796;0.000000000000000E+000;34
11189.9;1.62613;0.00203248;-0.000432559;0.240861;0.000000000000000E+000;35
11455.3;2.59948;0.00191024;0.000000000000000E+000;0.000000000000000E+000;0.796398;36
11715.7;2.34923;0.000685328;0.000000000000000E+000;0.000000000000000E+000;0.297492;37
11981.7;0.9993;0.00205734;-0.00107095;0.770257;0.000000000000000E+000;37
12241.7;1.37978;0.00208827;-0.000661986;0.39671;0.000000000000000E+000;38
12506.1;2.59955;0.00192054;0.000000000000000E+000;0.000000000000000E+000;0.80164;39
12764.6;2.28641;0.00025703;0.000000000000000E+000;0.000000000000000E+000;0.113333;40
13029.2;0.999338;0.00209461;-0.00102369;0.733602;0.000000000000000E+000;40
13289.6;1.63955;0.00209459;-0.000377059;0.212526;0.000000000000000E+000;41
13560.6;2.54631;0.00164771;0.000000000000000E+000;0.000000000000000E+000;0.694121;42
13818.4;1.20014;0.00209238;-0.00108336;0.80212;0.000000000000000E+000;42
14079.7;0.999281;0.00208167;-0.00095593;0.682074;0.000000000000000E+000;43
14341;1.77953;0.00206725;-0.000154609;0.0850096;0.000000000000000E+000;44
14612.1;2.47834;0.00140761;0.000000000000000E+000;0.000000000000000E+000;0.59497;45
14874.9;1.13997;0.00204245;-0.00103667;0.783791;0.000000000000000E+000;45
15135.6;0.999281;0.00207159;-0.000850968;0.601529;0.000000000000000E+000;46
15405.9;2.59938;0.00202979;0.000000000000000E+000;0.000000000000000E+000;0.833542;47
15667.5;2.40222;0.00086098;0.000000000000000E+000;0.000000000000000E+000;0.368317;48
15933.7;0.999204;0.00201187;-0.000954649;0.729331;0.000000000000000E+000;48
16194.4;1.31443;0.00197906;-0.000530569;0.34004;0.000000000000000E+000;49
16460.2;2.59938;0.00182639;0.000000000000000E+000;0.000000000000000E+000;0.749237;50
16720.3;2.35495;0.000393761;0.000000000000000E+000;0.000000000000000E+000;0.169995;51
16986.4;0.999243;0.0019549;-0.000824507;0.634446;0.000000000000000E+000;51
17250.8;2.41923;0.00192489;0.000000000000000E+000;0.000000000000000E+000;0.782948;52
17516;2.55456;0.00125903;0.000000000000000E+000;0.000000000000000E+000;0.524138;53
17781.5;0.9993;0.00188707;-0.00085705;0.69215;0.000000000000000E+000;53
18041.2;1.04678;0.00185865;-0.000536782;0.382539;0.000000000000000E+000;54
18307.2;2.59946;0.00175869;0.000000000000000E+000;0.000000000000000E+000;0.712359;55
18566.3;2.35488;0.000297387;0.000000000000000E+000;0.000000000000000E+000;0.127499;56
18832.2;0.999338;0.00182728;-0.000723763;0.589016;0.000000000000000E+000;56
19092.7;1.50259;0.00176783;-0.000154802;0.0991781;0.000000000000000E+000;57
19359.5;2.59938;0.00141153;0.000000000000000E+000;0.000000000000000E+000;0.574842;58
19630.4;0.9993;0.00176858;-0.000773668;0.658372;0.000000000000000E+000;58
19887.6;0.999166;0.0017435;-0.000556131;0.450003;0.000000000000000E+000;59
20157.9;2.59938;0.00168227;0.000000000000000E+000;0.000000000000000E+000;0.675641;60
20418.5;2.46305;0.00071438;0.000000000000000E+000;0.000000000000000E+000;0.297489;61
20684.6;0.999243;0.001686;-0.000676543;0.58665;0.000000000000000E+000;61
20942.8;0.99993;0.0016555;-0.000362353;0.27965;0.000000000000000E+000;62
21210.8;2.59944;0.00155458;0.000000000000000E+000;0.000000000000000E+000;0.622409;63
21470.5;2.43604;0.0004062;0.000000000000000E+000;0.000000000000000E+000;0.169997;64
21735.5;0.9993;0.00160593;-0.000609571;0.54072;0.000000000000000E+000;64
21993.9;0.999873;0.00158161;-0.000301786;0.239368;0.000000000000000E+000;65
22259.6;2.5994;0.00147547;0.000000000000000E+000;0.000000000000000E+000;0.587913;66
22519.6;2.46742;0.000478925;0.000000000000000E+000;0.000000000000000E+000;0.198326;67
22783.6;0.999338;0.00152549;-0.000573582;0.52291;0.000000000000000E+000;67
23039.7;0.999319;0.0015075;-0.000359621;0.313408;0.000000000000000E+000;68
23310.3;2.59942;0.00146076;0.000000000000000E+000;0.000000000000000E+000;0.579075;69
23564.9;2.59948;0.00101047;0.000000000000000E+000;0.000000000000000E+000;0.404948;70
23835.1;0.999319;0.00144952;-0.0005757;0.539051;0.000000000000000E+000;70
24089.1;0.999224;0.00142724;-0.000464924;0.432232;0.000000000000000E+000;71
24345.8;0.999376;0.00140056;-0.000211023;0.181938;0.000000000000000E+000;72
24616.5;2.59948;0.00134607;0.000000000000000E+000;0.000000000000000E+000;0.531954;73
24869.4;2.59952;0.000851193;0.000000000000000E+000;0.000000000000000E+000;0.340956;74
25138.7;0.999376;0.00135848;-0.000524664;0.502024;0.000000000000000E+000;74
25395.6;0.999319;0.0013329;-0.000437345;0.417824;0.000000000000000E+000;75
25652;0.999414;0.00134881;-0.000174592;0.157099;0.000000000000000E+000;76
25922.6;2.59942;0.0012657;0.000000000000000E+000;0.000000000000000E+000;0.498659;77
26178.8;2.5994;0.00102612;0.000000000000000E+000;0.000000000000000E+000;0.405791;78
26443.2;1.23474;0.00126413;-0.000492647;0.480778;0.000000000000000E+000;78
26706.3;0.999338;0.00127854;-0.000420369;0.410102;0.000000000000000E+000;79
26961.7;0.999281;0.00122863;-0.000315778;0.307297;0.000000000000000E+000;80
27222.2;1.19953;0.00124322;-1.7e-05;0.0141699;0.000000000000000E+000;81
27487.2;2.5995;0.0011378;0.000000000000000E+000;0.000000000000000E+000;0.446299;82
27744.2;2.59938;0.000906253;0.000000000000000E+000;0.000000000000000E+000;0.356681;83
28003.8;2.4881;0.000244199;0.000000000000000E+000;0.000000000000000E+000;0.099168;84
28268.7;0.999319;0.00114253;-0.000408177;0.405381;0.000000000000000E+000;84
28523.8;0.999414;0.00112088;-0.000349044;0.347014;0.000000000000000E+000;85
28779.6;0.999204;0.00114111;-0.000217188;0.215667;0.000000000000000E+000;86
29035.2;0.999357;0.00108415;-5.52023e-05;0.0541561;0.000000000000000E+000;87
29306.2;2.59946;0.00105938;0.000000000000000E+000;0.000000000000000E+000;0.413205;88
29561.2;2.59934;0.000983526;0.000000000000000E+000;0.000000000000000E+000;0.383679;89
29815.5;2.59944;0.000810912;0.000000000000000E+000;0.000000000000000E+000;0.316781;90
30072.7;2.60049;0.000408621;0.000000000000000E+000;0.000000000000000E+000;0.16178;91
30331.9;1.25774;0.00101209;-0.000369958;0.370153;0.000000000000000E+000;91
30595.5;0.999224;0.000996686;-0.000347579;0.347805;0.000000000000000E+000;92
30851.2;0.999147;0.000977516;-0.000313618;0.313831;0.000000000000000E+000;93
31105.1;0.999185;0.000964796;-0.000270411;0.270593;0.000000000000000E+000;94
31359.8;0.999166;0.000945089;-0.000225372;0.225521;0.000000000000000E+000;95
31614.4;0.999319;0.000924311;-0.000180913;0.181029;0.000000000000000E+000;96
31871.5;0.9993;0.000922809;-0.000121276;0.121355;0.000000000000000E+000;97
32125.3;0.999243;0.000901401;-5.05066e-05;0.0505348;0.000000000000000E+000;98
32392;2.56648;0.000910281;0.000000000000000E+000;0.000000000000000E+000;0.35251;99
32551.1;1.28665;0.000910281;-0.000322141;0.322354;0.000000000000000E+000;99