Folder: DBL-Energy/Data/RFB

File: OGO2024_flow battery 3_cycling_6 mM ethoxyAB + DBBB + 200 mM TBAPF6 in MeCN_02_CV_C05.txt
time/s;Ewe/V;Energy charge/W.h;Energy discharge/W.h;Q discharge/mA.h;Q charge/mA.h;cycle number;
0.000000000000000E+000;-0.0419972;0.000000000000000E+000;0.000000000000000E+000;0.000000000000000E+000;0.000000000000000E+000;0.000000000000000E+000
208.497;2.99945;0.00339879;0.000000000000000E+000;0.000000000000000E+000;1.20083;0.000000000000000E+000
408.231;2.69387;0.000341004;0.000000000000000E+000;0.000000000000000E+000;0.127499;1
618.413;2.40896;0.00284961;-0.00106732;0.425068;0.000000000000000E+000;1
828.004;2.77907;0.00138366;0.000000000000000E+000;0.000000000000000E+000;0.509976;2
1034.49;0.999225;0.00286701;-0.00159902;0.748812;0.000000000000000E+000;2
1249.49;2.97765;0.00242484;0.000000000000000E+000;0.000000000000000E+000;0.878277;3
1453.4;0.999359;0.00286859;-0.00168741;0.873011;0.000000000000000E+000;3
1660.06;2.7928;0.0028747;0.000000000000000E+000;0.000000000000000E+000;1.02857;4
1864.37;2.66011;0.000260528;0.000000000000000E+000;0.000000000000000E+000;0.0991667;5
2074.41;2.02654;0.00284617;-0.000877154;0.368388;0.000000000000000E+000;5
2283.95;2.80053;0.00153647;0.000000000000000E+000;0.000000000000000E+000;0.566641;6
2488.58;0.999168;0.00273512;-0.00125579;0.712986;0.000000000000000E+000;6
2698.66;2.99928;0.00258517;0.000000000000000E+000;0.000000000000000E+000;0.930909;7
2899.25;2.57638;0.000319203;0.000000000000000E+000;0.000000000000000E+000;0.127497;8
3108.68;0.999301;0.00252117;-0.00088386;0.478975;0.000000000000000E+000;8
3316.52;2.9993;0.00204828;0.000000000000000E+000;0.000000000000000E+000;0.75633;9
3526.73;0.999225;0.00252657;-0.00109111;0.734499;0.000000000000000E+000;9
3726.46;2.58931;0.00242347;-7.29674e-09;2.81803e-06;0.000000000000000E+000;10
3935.95;2.7689;0.00125375;0.000000000000000E+000;0.000000000000000E+000;0.481639;11
4142.24;0.999263;0.00225046;-0.000896522;0.637907;0.000000000000000E+000;11
4342.75;1.84053;0.00216306;-0.000162536;0.0850128;0.000000000000000E+000;12
4548.96;2.99937;0.0015822;0.000000000000000E+000;0.000000000000000E+000;0.59923;13
4751.66;1.66543;0.00207302;-0.000855799;0.656212;0.000000000000000E+000;13
4959.9;0.999206;0.00198454;-0.000579426;0.391434;0.000000000000000E+000;14
5167.76;2.99937;0.00189401;0.000000000000000E+000;0.000000000000000E+000;0.705246;15
5368.32;2.73411;0.000954275;0.000000000000000E+000;0.000000000000000E+000;0.382481;16
5573.75;0.999225;0.00189696;-0.000762881;0.60174;0.000000000000000E+000;16
5773.78;1.2973;0.00186023;-0.00038275;0.255034;0.000000000000000E+000;17
5977.26;2.99931;0.00171458;0.000000000000000E+000;0.000000000000000E+000;0.642554;18
6178.98;2.71405;0.00087429;0.000000000000000E+000;0.000000000000000E+000;0.354154;19
6384.77;0.999206;0.00177194;-0.000700238;0.577837;0.000000000000000E+000;19
6581.29;0.99913;0.00171655;-0.000448912;0.337118;0.000000000000000E+000;20
6786.44;2.64419;0.00166804;0.000000000000000E+000;0.000000000000000E+000;0.621605;21
6986.37;2.99939;0.00134285;0.000000000000000E+000;0.000000000000000E+000;0.511066;22
7186.01;2.46718;0.000440218;0.000000000000000E+000;0.000000000000000E+000;0.184165;23
7391.6;0.999263;0.00157935;-0.000583937;0.504219;0.000000000000000E+000;23
7585.79;0.999149;0.0015436;-0.00039051;0.320597;0.000000000000000E+000;24
7795.76;2.99933;0.00155801;0.000000000000000E+000;0.000000000000000E+000;0.58266;25
7996.42;2.94152;0.000959495;0.000000000000000E+000;0.000000000000000E+000;0.38248;26
8201.21;0.999091;0.00154002;-0.000564303;0.50965;0.000000000000000E+000;26
8397.59;0.999091;0.00148693;-0.000431957;0.380894;0.000000000000000E+000;27
8600.49;2.5684;0.0014707;0.000000000000000E+000;0.000000000000000E+000;0.547999;28
8802.4;2.99937;0.00113053;0.000000000000000E+000;0.000000000000000E+000;0.436461;29
9000.96;2.3195;0.000131007;0.000000000000000E+000;0.000000000000000E+000;0.0566682;30
9208.66;0.999149;0.00136855;-0.000466856;0.421762;0.000000000000000E+000;30
9403.81;0.999149;0.00132974;-0.00028744;0.244011;0.000000000000000E+000;31
9612.39;2.99943;0.00129528;0.000000000000000E+000;0.000000000000000E+000;0.486757;32
9809.7;2.99937;0.00103948;0.000000000000000E+000;0.000000000000000E+000;0.399708;33
10010.4;2.39539;0.000298962;0.000000000000000E+000;0.000000000000000E+000;0.127501;34
10217.8;0.999225;0.00124422;-0.000444821;0.410493;0.000000000000000E+000;34
10412.7;0.999282;0.00122175;-0.000360422;0.32854;0.000000000000000E+000;35
10612.3;0.999683;0.00119866;-0.000180254;0.150946;0.000000000000000E+000;36
10818.7;2.99941;0.00116925;0.000000000000000E+000;0.000000000000000E+000;0.435166;37
11012.2;2.99939;0.00098441;0.000000000000000E+000;0.000000000000000E+000;0.371627;38
11213.5;2.65437;0.000518081;0.000000000000000E+000;0.000000000000000E+000;0.212495;39
11412.5;1.41983;0.0011475;-0.000408619;0.385963;0.000000000000000E+000;39
11615.5;0.999225;0.0011276;-0.000376253;0.355741;0.000000000000000E+000;40
11810;0.999072;0.00111512;-0.000309026;0.290195;0.000000000000000E+000;41
12005.3;0.99913;0.00110558;-0.000156154;0.139418;0.000000000000000E+000;42
12211.2;2.69553;0.00109291;0.000000000000000E+000;0.000000000000000E+000;0.402504;43
12411.2;2.99931;0.00101033;0.000000000000000E+000;0.000000000000000E+000;0.374235;44
12605;2.99931;0.000773614;0.000000000000000E+000;0.000000000000000E+000;0.294614;45
12805;2.47164;0.000304343;0.000000000000000E+000;0.000000000000000E+000;0.1275;46
13009.5;0.999206;0.00106041;-0.000370122;0.3589;0.000000000000000E+000;46
13204.1;0.999149;0.00109083;-0.000296055;0.2863;0.000000000000000E+000;47
13399.5;0.999244;0.00108147;-8.54793e-05;0.0764884;0.000000000000000E+000;48
13609.6;2.99947;0.00102321;0.000000000000000E+000;0.000000000000000E+000;0.378606;49
13803.5;2.99937;0.000623719;0.000000000000000E+000;0.000000000000000E+000;0.24479;50
14010.2;1.30563;0.00106179;-0.000366102;0.359381;0.000000000000000E+000;50
14210.5;0.999244;0.00105434;-0.000323487;0.317438;0.000000000000000E+000;51
14406.9;0.999187;0.00104565;-0.00022865;0.223259;0.000000000000000E+000;52
14603.6;0.99911;0.000995191;-0.000133097;0.128589;0.000000000000000E+000;53
14814.6;2.99935;0.00101633;0.000000000000000E+000;0.000000000000000E+000;0.373367;54
15009.1;2.99926;0.00082643;0.000000000000000E+000;0.000000000000000E+000;0.309302;55
15209.2;2.41744;0.000235939;0.000000000000000E+000;0.000000000000000E+000;0.0991681;56
15414.6;0.999225;0.00100985;-0.000331088;0.328299;0.000000000000000E+000;56
15609.8;0.999282;0.00100299;-0.000275775;0.273261;0.000000000000000E+000;57
15806;0.99913;0.000994298;-0.000165714;0.163477;0.000000000000000E+000;58
16009.9;2.67445;0.000986448;0.000000000000000E+000;0.000000000000000E+000;0.360457;59
16211.1;2.99939;0.00089235;0.000000000000000E+000;0.000000000000000E+000;0.328675;60
16405.6;2.99937;0.000505365;0.000000000000000E+000;0.000000000000000E+000;0.199177;61
16608.8;1.35628;0.000971817;-0.000324133;0.322431;0.000000000000000E+000;61
16812.3;0.999149;0.000961028;-0.00029915;0.297567;0.000000000000000E+000;62
17007.7;0.999168;0.000958481;-0.000237149;0.235645;0.000000000000000E+000;63
17202.5;0.999225;0.00095188;-0.000123224;0.121749;0.000000000000000E+000;64
17408.3;2.71995;0.000943819;0.000000000000000E+000;0.000000000000000E+000;0.343372;65
17607.6;2.99958;0.000849875;0.000000000000000E+000;0.000000000000000E+000;0.312148;66
17803.6;3.00201;0.000476093;0.000000000000000E+000;0.000000000000000E+000;0.187013;67
18008.2;1.26198;0.000937973;-0.000310173;0.309238;0.000000000000000E+000;67
18205.6;0.99913;0.000931673;-0.00027278;0.271962;0.000000000000000E+000;68
18400.8;0.999301;0.00092176;-0.000208916;0.208193;0.000000000000000E+000;69
18594.7;0.999149;0.000922347;-8.72826e-05;0.0865255;0.000000000000000E+000;70
18804.9;2.99945;0.000912208;0.000000000000000E+000;0.000000000000000E+000;0.330739;71
18999.1;2.99939;0.000780615;0.000000000000000E+000;0.000000000000000E+000;0.286656;72
19198.4;2.69177;0.000349286;0.000000000000000E+000;0.000000000000000E+000;0.141668;73
19403.5;0.99911;0.000908424;-0.000290084;0.289775;0.000000000000000E+000;73
19596.1;0.999187;0.000902208;-0.000240523;0.240302;0.000000000000000E+000;74
19790.2;0.999263;0.000892756;-0.000166237;0.166045;0.000000000000000E+000;75
19985.1;0.999206;0.000887938;-3.69531e-05;0.0367189;0.000000000000000E+000;76
20196.5;2.99939;0.000858964;0.000000000000000E+000;0.000000000000000E+000;0.310823;77
20390.7;2.99935;0.00068159;0.000000000000000E+000;0.000000000000000E+000;0.251385;78
20589.8;2.41107;0.000135732;0.000000000000000E+000;0.000000000000000E+000;0.0566687;79
20795.7;0.999206;0.000871439;-0.000264593;0.264793;0.000000000000000E+000;79
20991.5;0.999168;0.000854198;-0.00022633;0.22651;0.000000000000000E+000;80
21189.2;0.999149;0.000851124;-0.000171514;0.171652;0.000000000000000E+000;81
21385.3;0.99913;0.0008413;-8.74949e-05;0.0875652;0.000000000000000E+000;82
21591.4;2.79421;0.000839226;0.000000000000000E+000;0.000000000000000E+000;0.301346;83
21790.9;2.99958;0.000755924;0.000000000000000E+000;0.000000000000000E+000;0.273131;84
21986.3;2.99943;0.000508676;0.000000000000000E+000;0.000000000000000E+000;0.190387;85
22187.3;1.44384;4.0623e-09;0.000000000000000E+000;0.000000000000000E+000;2.81355e-06;86
22393.3;0.999263;0.000819268;-0.000240546;0.24073;0.000000000000000E+000;86
22588.6;0.999206;0.000770304;-0.00022568;0.225848;0.000000000000000E+000;87
22784.3;0.999263;0.000796783;-0.000188595;0.188744;0.000000000000000E+000;88
22979.7;0.999187;0.000791603;-0.000137324;0.137435;0.000000000000000E+000;89
23175;0.99932;0.00079003;-5.5089e-05;0.0551318;0.000000000000000E+000;90
23382.2;2.99951;0.000782169;0.000000000000000E+000;0.000000000000000E+000;0.27829;91
23579.2;2.99943;0.000723067;0.000000000000000E+000;0.000000000000000E+000;0.254661;92
23759.5;0.999206;0.000206625;-0.000221374;0.221548;0.000000000000000E+000;93
23955.2;0.999282;0.000724009;-0.000214684;0.214846;0.000000000000000E+000;94
24149.8;0.999168;0.000722319;-0.000204594;0.204751;0.000000000000000E+000;95
24345.1;0.999263;0.00071985;-0.00019417;0.194319;0.000000000000000E+000;96
24540.1;0.999206;0.000714937;-0.000182863;0.183;0.000000000000000E+000;97
24736.8;0.999244;0.000711366;-0.000173521;0.173652;0.000000000000000E+000;98
24934.3;0.999244;0.000709003;-0.000163779;0.163905;0.000000000000000E+000;99
24984.3;1.33329;0.000709003;-0.000214196;0.214363;0.000000000000000E+000;99